success,trial_type,time_elapsed,internal_node_id,view_history,rt,responses,correct,stimulus,button_pressed,pid,revealed_states,num_clicks_accrued,state_rewards,trial_id,block,trial_index,score,simulation_mode,rewards,path,actions,action_times,queries,displayed_time,trial_time
,mouselab-mdp,62499,0.0-3.0-1.0-0.0,,"[304, 4, 37]",,,,,1,[],"[0, 0, 0, 0, 0, 0, 0, 0, 0, 0, 0, 0, 0]","['', 2, -8, 48, -48, -2, 8, -48, 24, 2, 8, -24, -48]",-5.298439851260358e+18,training,0.0,41.0,"[None, None, None]","[2, -8, 48]","['0', '0', '1', '2', '3']","['up', 'up', 'right']","[27062, 27602, 28166]","{'click': {'state': {'target': ['4'], 'time': [1792]}, 'edge': {'target': [], 'time': []}}, 'mouseover': {'state': {'target': ['1', '4', '1'], 'time': [1203, 1555, 2691]}, 'edge': {'target': [], 'time': []}}, 'mouseout': {'state': {'target': ['1', '0', '1', '4'], 'time': [492, 1093, 1253, 2058]}, 'edge': {'target': [], 'time': []}}}",28.70,29885.0
,mouselab-mdp,81899,0.0-3.0-1.0-1.0,,"[248, 11, 10]",,,,,1,[],"[0, 0, 0, 0, 0, 0, 0, 0, 0, 0, 0, 0, 0]","['', 4, 4, 48, 24, 4, -4, 24, -48, -2, -8, -24, -48]",5.662483218820924e+17,training,1.0,55.0,"[None, None, None]","[4, 4, 48]","['0', '0', '1', '2', '3']","['up', 'up', 'right']","[17018, 17566, 18113]","{'click': {'state': {'target': ['5'], 'time': [1874]}, 'edge': {'target': [], 'time': []}}, 'mouseover': {'state': {'target': ['5'], 'time': [1599]}, 'edge': {'target': [], 'time': []}}, 'mouseout': {'state': {'target': ['1'], 'time': [908]}, 'edge': {'target': [], 'time': []}}}",18.65,19121.0
,mouselab-mdp,93037,0.0-3.0-1.0-2.0,,"[562, 108, 59]",,,,,1,[],"[0, 0, 0, 0, 0, 0, 0, 0, 0, 0, 0, 0, 0]","['', -4, -4, -24, 24, -4, -8, -48, -48, 2, -4, -24, 24]",-5.712514638697657e+18,training,2.0,-32.0,"[None, None, None]","[-4, -4, -24]","['0', '0', '1', '2', '3']","['up', 'up', 'right']","[2148, 2779, 3360]","{'click': {'state': {'target': [], 'time': []}, 'edge': {'target': [], 'time': []}}, 'mouseover': {'state': {'target': [], 'time': []}, 'edge': {'target': [], 'time': []}}, 'mouseout': {'state': {'target': ['5'], 'time': [1222]}, 'edge': {'target': [], 'time': []}}}",10.59,10879.0
,mouselab-mdp,101939,0.0-3.0-1.0-3.0,,"[601, 47, 571]",,,,,1,[],"[0, 0, 0, 0, 0, 0, 0, 0, 0, 0, 0, 0, 0]","['', -2, 8, 48, 24, 4, 8, 48, 48, -4, 4, 24, 24]",8.067169575405887e+17,training,3.0,54.0,"[None, None, None]","[-2, 8, 48]","['0', '0', '1', '2', '3']","['up', 'up', 'right']","[1068, 1630, 2730]","{'click': {'state': {'target': [], 'time': []}, 'edge': {'target': [], 'time': []}}, 'mouseover': {'state': {'target': [], 'time': []}, 'edge': {'target': [], 'time': []}}, 'mouseout': {'state': {'target': [], 'time': []}, 'edge': {'target': [], 'time': []}}}",8.47,8819.0
,mouselab-mdp,112821,0.0-3.0-2.0-0.0,,"[542, 96, 110]",,,,,1,[],"[0, 0, 0, 0, 0, 0, 0, 0, 0, 0, 0, 0, 0]","['', -4, 8, 48, -48, -4, -4, -48, 48, -2, 8, 24, 48]",-4.689310195682358e+18,test,4.0,52.0,"[None, None, None]","[-4, 8, 48]","['0', '0', '1', '2', '3']","['up', 'up', 'right']","[1799, 2434, 3063]","{'click': {'state': {'target': [], 'time': []}, 'edge': {'target': [], 'time': []}}, 'mouseover': {'state': {'target': [], 'time': []}, 'edge': {'target': [], 'time': []}}, 'mouseout': {'state': {'target': [], 'time': []}, 'edge': {'target': [], 'time': []}}}",10.26,10697.0
,mouselab-mdp,121614,0.0-3.0-2.0-1.0,,"[812, 125, 172]",,,,,1,[],"[0, 0, 0, 0, 0, 0, 0, 0, 0, 0, 0, 0, 0]","['', -4, 4, -48, -24, 4, 4, 24, -48, -2, 4, 48, -48]",-3.2418898182311296e+18,test,5.0,-48.0,"[None, None, None]","[-4, 4, -48]","['0', '0', '1', '2', '3']","['up', 'up', 'right']","[1409, 2062, 2773]","{'click': {'state': {'target': [], 'time': []}, 'edge': {'target': [], 'time': []}}, 'mouseover': {'state': {'target': [], 'time': []}, 'edge': {'target': [], 'time': []}}, 'mouseout': {'state': {'target': ['0'], 'time': [6270]}, 'edge': {'target': [], 'time': []}}}",8.61,8614.0
,mouselab-mdp,141936,0.0-3.0-4.0-0.0,,"[8005, 145, 79]",,,,,1,[],"[0, 0, 0, 0, 0, 0, 0, 0, 0, 0, 0, 0, 0]","['', -4, -4, -24, 48, 4, 8, 24, -24, -2, 8, 24, 48]",-2.851190945072683e+17,fairy,6.0,45.0,"[None, None, None]","[-2, 8, 48]","['0', '0', '9', '10', '12']","['left', 'left', 'down']","[9572, 10237, 10836]","{'click': {'state': {'target': ['4', '2', '3', '7', '6', '8', '12', '10', '11'], 'time': [2469, 3098, 3509, 5863, 6281, 6657, 7660, 8127, 8588]}, 'edge': {'target': [], 'time': []}}, 'mouseover': {'state': {'target': ['4', '2', '3', '7', '6', '8', '12', '10', '11'], 'time': [2287, 2835, 3334, 5617, 6104, 6461, 7407, 7924, 8396]}, 'edge': {'target': [], 'time': []}}, 'mouseout': {'state': {'target': ['0', '4', '2', '3', '3', '7', '6', '8', '12', '10'], 'time': [996, 2721, 3288, 3735, 4213, 6054, 6394, 7091, 7840, 8331]}, 'edge': {'target': [], 'time': []}}}",11.36,12032.0
,mouselab-mdp,151597,0.0-3.0-4.0-1.0,,"[6183, 50, 62]",,,,,1,[],"[0, 0, 0, 0, 0, 0, 0, 0, 0, 0, 0, 0, 0]","['', -2, 8, -24, 24, 2, -8, -48, -24, 4, -4, 48, -48]",-6.373051720525899e+18,fairy,7.0,39.0,"[None, None, None]","[4, -4, 48]","['0', '0', '9', '10', '11']","['left', 'left', 'up']","[7125, 7711, 8299]","{'click': {'state': {'target': ['12', '10', '11', '4', '2', '3', '7', '6', '8'], 'time': [1576, 1924, 2374, 3072, 3607, 4324, 4831, 5761, 6154]}, 'edge': {'target': [], 'time': []}}, 'mouseover': {'state': {'target': ['9', '12', '10', '11', '4', '2', '3', '7', '6', '8'], 'time': [1175, 1410, 1773, 2273, 2893, 3424, 3972, 4671, 5194, 5978]}, 'edge': {'target': [], 'time': []}}, 'mouseout': {'state': {'target': ['11', '9', '9', '12', '10', '11', '4', '2', '3', '7', '6'], 'time': [490, 624, 1191, 1725, 2157, 2656, 3358, 3697, 4538, 5161, 5905]}, 'edge': {'target': [], 'time': []}}}",8.98,9581.0
,mouselab-mdp,31870,0.0-3.0-1.0-0.0,,"[974, 152, 113]",,,,,3,[],"[0, 0, 0, 0, 0, 0, 0, 0, 0, 0, 0, 0, 0]","['', 2, 8, -48, 48, 4, 4, -24, 48, -4, -4, 48, -24]",-9.094639660769571e+18,training,0.0,57.0,"[None, None, None]","[2, 8, 48]","['0', '0', '1', '2', '4']","['up', 'up', 'left']","[7543, 8216, 8845]","{'click': {'state': {'target': ['4'], 'time': [1906]}, 'edge': {'target': [], 'time': []}}, 'mouseover': {'state': {'target': ['4', '8'], 'time': [1801, 2716]}, 'edge': {'target': [], 'time': []}}, 'mouseout': {'state': {'target': ['0', '4'], 'time': [1392, 2184]}, 'edge': {'target': [], 'time': []}}}",10.28,10444.0
,mouselab-mdp,48663,0.0-3.0-1.0-1.0,,"[12619, 201, 146]",,,,,3,[],"[0, 0, 0, 0, 0, 0, 0, 0, 0, 0, 0, 0, 0]","['', 2, 8, -48, -48, -4, 8, 24, 24, -2, 8, -24, 48]",-3.2359844448818867e+18,training,1.0,52.0,"[None, None, None]","[-2, 8, 48]","['0', '0', '9', '10', '12']","['left', 'left', 'down']","[14293, 15007, 15667]","{'click': {'state': {'target': ['12', '9'], 'time': [2292, 7948]}, 'edge': {'target': [], 'time': []}}, 'mouseover': {'state': {'target': ['12', '9'], 'time': [2113, 3193]}, 'edge': {'target': [], 'time': []}}, 'mouseout': {'state': {'target': ['8', '0', '0', '12'], 'time': [811, 1096, 1846, 3012]}, 'edge': {'target': [], 'time': []}}}",16.19,16675.0
,mouselab-mdp,59365,0.0-3.0-1.0-2.0,,"[275, 40, 40]",,,,,3,[],"[0, 0, 0, 0, 0, 0, 0, 0, 0, 0, 0, 0, 0]","['', -2, -4, 48, -48, 4, 8, 48, 24, 2, -4, -48, -24]",-6.802951220459882e+18,training,2.0,41.0,"[None, None, None]","[-2, -4, 48]","['0', '0', '1', '2', '3']","['up', 'up', 'right']","[7930, 8491, 9053]","{'click': {'state': {'target': ['3'], 'time': [2809]}, 'edge': {'target': [], 'time': []}}, 'mouseover': {'state': {'target': ['1', '3', '1'], 'time': [1615, 2715, 3404]}, 'edge': {'target': [], 'time': []}}, 'mouseout': {'state': {'target': ['9', '1', '3'], 'time': [898, 1648, 3164]}, 'edge': {'target': [], 'time': []}}}",10.27,10578.0
,mouselab-mdp,69898,0.0-3.0-1.0-3.0,,"[573, 281, 20]",,,,,3,[],"[0, 0, 0, 0, 0, 0, 0, 0, 0, 0, 0, 0, 0]","['', 4, -8, 48, 24, -2, -4, 24, -24, 4, -4, 48, 48]",-8.930756420240891e+18,training,3.0,47.0,"[None, None, None]","[4, -4, 48]","['0', '0', '9', '10', '11']","['left', 'left', 'up']","[7224, 8027, 8558]","{'click': {'state': {'target': ['11'], 'time': [1743]}, 'edge': {'target': [], 'time': []}}, 'mouseover': {'state': {'target': ['11', '10'], 'time': [1441, 2124]}, 'edge': {'target': [], 'time': []}}, 'mouseout': {'state': {'target': ['1', '0', '11'], 'time': [641, 1276, 2075]}, 'edge': {'target': [], 'time': []}}}",10.04,10413.0
,mouselab-mdp,102436,0.0-3.0-3.0-0.0,,"[5944, 114, 14]",,,,,3,[],"[0, 0, 0, 0, 0, 0, 0, 0, 0, 0, 0, 0, 0]","['', 2, 4, -24, 24, 4, -8, -48, 48, 2, 4, -48, -24]",-6.74953611421507e+18,fairy,4.0,-58.0,"[None, None, None]","[4, -8, -48]","['0', '0', '5', '6', '7']","['right', 'right', 'up']","[7330, 7957, 8492]","{'click': {'state': {'target': ['12', '10', '11', '9', '2', '6'], 'time': [2749, 3235, 3631, 4585, 5303, 6188]}, 'edge': {'target': [], 'time': []}}, 'mouseover': {'state': {'target': ['12', '10', '11', '9', '2', '6', '6'], 'time': [2605, 3082, 3481, 4511, 5097, 5815, 6096]}, 'edge': {'target': [], 'time': []}}, 'mouseout': {'state': {'target': ['0', '12', '10', '11', '9', '2', '6'], 'time': [1527, 2999, 3414, 3785, 4848, 5581, 5915]}, 'edge': {'target': [], 'time': []}}}",10.40,11629.0
,mouselab-mdp,112349,0.0-3.0-3.0-1.0,,"[2276, 88, 2]",,,,,3,[],"[0, 0, 0, 0, 0, 0, 0, 0, 0, 0, 0, 0, 0]","['', -2, 8, 24, -24, -4, -4, 24, -24, -2, -4, 48, -24]",1.164914541066255e+17,fairy,5.0,-33.0,"[None, None, None]","[-2, -4, -24]","['0', '0', '9', '10', '12']","['left', 'left', 'down']","[3651, 4250, 4764]","{'click': {'state': {'target': ['9', '1', '5'], 'time': [1798, 2275, 2806]}, 'edge': {'target': [], 'time': []}}, 'mouseover': {'state': {'target': ['9', '1', '5'], 'time': [1628, 2176, 2560]}, 'edge': {'target': [], 'time': []}}, 'mouseout': {'state': {'target': ['6', '0', '9', '1'], 'time': [793, 1529, 1992, 2428]}, 'edge': {'target': [], 'time': []}}}",9.38,9821.0
,mouselab-mdp,122952,0.0-3.0-5.0-0.0,,"[260, 261, 343]",,,,,3,[],"[0, 0, 0, 0, 0, 0, 0, 0, 0, 0, 0, 0, 0]","['', -4, -4, -48, 24, 4, 4, 48, -24, 4, -4, 48, 24]",1.5188454736172308e+18,test,6.0,15.0,"[None, None, None]","[-4, -4, 24]","['0', '0', '1', '2', '4']","['up', 'up', 'left']","[6234, 7012, 7873]","{'click': {'state': {'target': ['4'], 'time': [1210]}, 'edge': {'target': [], 'time': []}}, 'mouseover': {'state': {'target': ['4'], 'time': [981]}, 'edge': {'target': [], 'time': []}}, 'mouseout': {'state': {'target': ['0'], 'time': [355]}, 'edge': {'target': [], 'time': []}}}",8.72,9171.0
,mouselab-mdp,133620,0.0-3.0-5.0-1.0,,"[236, 176, 139]",,,,,3,[],"[0, 0, 0, 0, 0, 0, 0, 0, 0, 0, 0, 0, 0]","['', 2, -8, 24, 48, 4, 4, 48, 48, 2, -8, -48, -48]",7.007154183592665e+18,test,7.0,17.0,"[None, None, None]","[2, -8, 24]","['0', '0', '1', '2', '3']","['up', 'up', 'right']","[7029, 7722, 8380]","{'click': {'state': {'target': ['3'], 'time': [1939]}, 'edge': {'target': [], 'time': []}}, 'mouseover': {'state': {'target': ['3'], 'time': [1816]}, 'edge': {'target': [], 'time': []}}, 'mouseout': {'state': {'target': ['4', '0'], 'time': [742, 1425]}, 'edge': {'target': [], 'time': []}}}",10.23,10574.0
,mouselab-mdp,33215,0.0-3.0-1.0-0.0,,"[10589, 214, 306]",,,,,4,[],"[0, 0, 0, 0, 0, 0, 0, 0, 0, 0, 0, 0, 0]","['', -2, 8, 24, 48, 2, -4, 48, -48, 2, 8, 24, -48]",4.460497769895528e+18,training,0.0,53.0,"[None, None, None]","[-2, 8, 48]","['0', '0', '1', '2', '4']","['up', 'up', 'left']","[11427, 12174, 12990]","{'click': {'edge': {'target': [], 'time': []}, 'state': {'target': ['4'], 'time': [1355]}}, 'mouseout': {'edge': {'target': [], 'time': []}, 'state': {'target': ['9', '0'], 'time': [388, 1056]}}, 'mouseover': {'edge': {'target': [], 'time': []}, 'state': {'target': ['4'], 'time': [1205]}}}",13.50,14520.0
,mouselab-mdp,83797,0.0-3.0-1.0-0.0,,"[1338, 321, 170]",,,,,5,[],"[0, 0, 0, 0, 0, 0, 0, 0, 0, 0, 0, 0, 0]","['', -4, 8, 24, 24, -2, -8, -48, -24, -4, -8, 24, 24]",5.782292848891635e+18,training,0.0,28.0,"[None, None, None]","[-4, 8, 24]","['0', '0', '1', '2', '3']","['up', 'up', 'right']","[3911, 4762, 5450]","{'click': {'state': {'target': [], 'time': []}, 'edge': {'target': [], 'time': []}}, 'mouseover': {'state': {'target': ['1', '1'], 'time': [3030, 3396]}, 'edge': {'target': [], 'time': []}}, 'mouseout': {'state': {'target': ['10', '9', '1'], 'time': [1779, 2127, 3048]}, 'edge': {'target': [], 'time': []}}}",10.57,10617.0
,mouselab-mdp,94086,0.0-3.0-1.0-1.0,,"[685, 261, 45]",,,,,5,[],"[0, 0, 0, 0, 0, 0, 0, 0, 0, 0, 0, 0, 0]","['', -2, 4, 24, 24, 4, 8, -48, 24, -2, 8, -48, -24]",-9.08425462156937e+18,training,1.0,-42.0,"[None, None, None]","[-2, 8, -48]","['0', '0', '9', '10', '11']","['left', 'left', 'up']","[2642, 3416, 4003]","{'click': {'state': {'target': [], 'time': []}, 'edge': {'target': [], 'time': []}}, 'mouseover': {'state': {'target': [], 'time': []}, 'edge': {'target': [], 'time': []}}, 'mouseout': {'state': {'target': ['1', '1'], 'time': [1433, 1503]}, 'edge': {'target': [], 'time': []}}}",9.96,10179.0
,mouselab-mdp,145079,0.0-3.0-1.0-2.0,,"[27219, 245, 837]",,,,,5,[],"[0, 0, 0, 0, 0, 0, 0, 0, 0, 0, 0, 0, 0]","['', 4, -4, 24, 24, 4, 4, 48, -48, 4, -8, -24, 48]",8.695590532405199e+18,training,2.0,23.0,"[None, None, None]","[4, -4, 24]","['0', '0', '1', '2', '3']","['up', 'up', 'right']","[44840, 45618, 46992]","{'click': {'state': {'target': ['8'], 'time': [1315]}, 'edge': {'target': [], 'time': []}}, 'mouseover': {'state': {'target': ['8'], 'time': [1089]}, 'edge': {'target': [], 'time': []}}, 'mouseout': {'state': {'target': ['0'], 'time': [959]}, 'edge': {'target': [], 'time': []}}}",47.52,50701.0
,mouselab-mdp,206318,0.0-3.0-1.0-3.0,,"[7094, 144, 140]",,,,,5,[],"[0, 0, 0, 0, 0, 0, 0, 0, 0, 0, 0, 0, 0]","['', 4, -4, -48, -24, 2, 4, 48, -48, -4, 4, 48, -48]",2.6140259645257293e+18,training,3.0,-49.0,"[None, None, None]","[4, -4, -48]","['0', '0', '1', '2', '3']","['up', 'up', 'right']","[57776, 58463, 59133]","{'click': {'state': {'target': ['4'], 'time': [21413]}, 'edge': {'target': [], 'time': []}}, 'mouseover': {'state': {'target': ['4', '9'], 'time': [21251, 57087]}, 'edge': {'target': [], 'time': []}}, 'mouseout': {'state': {'target': ['8', '0', '4', '9'], 'time': [3140, 4479, 25362, 57203]}, 'edge': {'target': [], 'time': []}}}",59.66,60920.0
,mouselab-mdp,225010,0.0-3.0-3.0-0.0,,"[487, 160, 77]",,,,,5,[],"[0, 0, 0, 0, 0, 0, 0, 0, 0, 0, 0, 0, 0]","['', -4, 8, -24, -48, 4, -4, 48, 24, 4, 4, 48, -24]",7.112299922459131e+18,fairy,4.0,-20.0,"[None, None, None]","[-4, 8, -24]","['0', '0', '1', '2', '3']","['up', 'up', 'right']","[2040, 2727, 3344]","{'click': {'state': {'target': [], 'time': []}, 'edge': {'target': [], 'time': []}}, 'mouseover': {'state': {'target': [], 'time': []}, 'edge': {'target': [], 'time': []}}, 'mouseout': {'state': {'target': ['12', '0'], 'time': [629, 9839]}, 'edge': {'target': [], 'time': []}}}",10.56,10743.0
,mouselab-mdp,235218,0.0-3.0-3.0-1.0,,"[792, 342, 158]",,,,,5,[],"[0, 0, 0, 0, 0, 0, 0, 0, 0, 0, 0, 0, 0]","['', 2, 4, -24, 48, 2, -8, -24, 48, 4, 4, 24, 24]",-1.6616713928916293e+18,fairy,5.0,32.0,"[None, None, None]","[4, 4, 24]","['0', '0', '9', '10', '11']","['left', 'left', 'up']","[1488, 2359, 3038]","{'click': {'state': {'target': [], 'time': []}, 'edge': {'target': [], 'time': []}}, 'mouseover': {'state': {'target': [], 'time': []}, 'edge': {'target': [], 'time': []}}, 'mouseout': {'state': {'target': ['0', '0'], 'time': [94, 5488]}, 'edge': {'target': [], 'time': []}}}",9.70,10089.0
,mouselab-mdp,491234,0.0-3.0-5.0-0.0,,"[1295, 57, 850]",,,,,5,[],"[0, 0, 0, 0, 0, 0, 0, 0, 0, 0, 0, 0, 0]","['', -4, -8, -48, -48, -2, -8, -48, 48, -2, 4, -24, -24]",5.130275037508485e+18,test,6.0,-60.0,"[None, None, None]","[-4, -8, -48]","['0', '0', '1', '2', '4']","['up', 'up', 'left']","[2456, 3056, 4450]","{'click': {'state': {'target': [], 'time': []}, 'edge': {'target': [], 'time': []}}, 'mouseover': {'state': {'target': [], 'time': []}, 'edge': {'target': [], 'time': []}}, 'mouseout': {'state': {'target': ['0', '1', '4'], 'time': [786, 16067, 185450]}, 'edge': {'target': [], 'time': []}}}",9.17,254801.0
,mouselab-mdp,500945,0.0-3.0-5.0-1.0,,"[1096, 502, 93]",,,,,5,[],"[0, 0, 0, 0, 0, 0, 0, 0, 0, 0, 0, 0, 0]","['', -2, 4, 24, -24, 4, -8, 24, -24, 4, -4, 48, -24]",6.242434190208863e+17,test,7.0,26.0,"[None, None, None]","[-2, 4, 24]","['0', '0', '1', '2', '3']","['up', 'up', 'right']","[2336, 3355, 3977]","{'click': {'state': {'target': [], 'time': []}, 'edge': {'target': [], 'time': []}}, 'mouseover': {'state': {'target': ['1'], 'time': [1613]}, 'edge': {'target': [], 'time': []}}, 'mouseout': {'state': {'target': ['0', '1'], 'time': [1075, 1632]}, 'edge': {'target': [], 'time': []}}}",9.24,9523.0
