success,trial_type,time_elapsed,internal_node_id,view_history,rt,responses,correct,stimulus,button_pressed,pid,revealed_states,num_clicks_accrued,state_rewards,trial_id,block,trial_index,score,simulation_mode,rewards,path,actions,action_times,queries,displayed_time,trial_time
,survey-multi-choice,16380,0.0-1.0-1.0,,6237.0,"{""Q0"":""$-10 to $10"",""Q1"":""Yes, but the cost for clicking on nodes varies."",""Q2"":""There is no limit"",""Q3"":""I will receive a $1 bonus if I perform well, otherwise I will receive no bonus."",""Q4"":""No, the amount of cash at each node of the web may be different each time.""}","{'Q0': '$-48 to $48', 'Q1': 'No, the cost is always $1.00.', 'Q2': 'There is no limit', 'Q3': 'The better I perform the higher my bonus will be.', 'Q4': 'No, the amount of cash at each node of the web may be different each time.'}",,,0,,,,,,,,,,,,,,,
,survey-multi-choice,31140,0.0-1.1-1.1,,6633.0,"{""Q0"":""$-10 to $10"",""Q1"":""Yes, but the cost for clicking on nodes varies."",""Q2"":""There is no limit"",""Q3"":""I will receive a $1 bonus if I perform well, otherwise I will receive no bonus."",""Q4"":""No, the structure of the web will be different each time.""}","{'Q0': '$-48 to $48', 'Q1': 'No, the cost is always $1.00.', 'Q2': 'There is no limit', 'Q3': 'The better I perform the higher my bonus will be.', 'Q4': 'No, the amount of cash at each node of the web may be different each time.'}",,,0,,,,,,,,,,,,,,,
,survey-multi-choice,50574,0.0-1.2-1.2,,9824.0,"{""Q0"":""$-10 to $10"",""Q1"":""It is more costly to inspect 'sticky' nodes."",""Q2"":""There is no limit"",""Q3"":""I will receive a $1 bonus if I perform well, otherwise I will receive no bonus."",""Q4"":""No, the amount of cash at each node of the web may be different each time.""}","{'Q0': '$-48 to $48', 'Q1': 'No, the cost is always $1.00.', 'Q2': 'There is no limit', 'Q3': 'The better I perform the higher my bonus will be.', 'Q4': 'No, the amount of cash at each node of the web may be different each time.'}",,,0,,,,,,,,,,,,,,,
,survey-multi-choice,66805,0.0-1.3-1.3,,6601.0,"{""Q0"":""$-10 to $10"",""Q1"":""Yes, but the cost for clicking on nodes varies."",""Q2"":""There is no limit"",""Q3"":""The better I perform the higher my bonus will be."",""Q4"":""No, the amount of cash at each node of the web may be different each time.""}","{'Q0': '$-48 to $48', 'Q1': 'No, the cost is always $1.00.', 'Q2': 'There is no limit', 'Q3': 'The better I perform the higher my bonus will be.', 'Q4': 'No, the amount of cash at each node of the web may be different each time.'}",,,0,,,,,,,,,,,,,,,
,survey-multi-choice,30994,0.0-1.0-1.0,,16027,"{""Q0"":""$-48 to $48"",""Q1"":""No, the cost is always $1.00."",""Q2"":""There is no limit"",""Q3"":""The better I perform the higher my bonus will be."",""Q4"":""No, the amount of cash at each node of the web may be different each time.""}","{'Q0': '$-48 to $48', 'Q1': 'No, the cost is always $1.00.', 'Q2': 'There is no limit', 'Q3': 'The better I perform the higher my bonus will be.', 'Q4': 'No, the amount of cash at each node of the web may be different each time.'}",,,1,,,,,,,,,,,,,,,
,survey-multi-choice,129669,0.0-3.0-3.0-0.0,,8040,"{""Q0"":""No"",""Q1"":""No, the cost is always $1.00."",""Q2"":""There is no limit""}","{'Q0': 'No', 'Q1': 'No, the cost is always $1.00.', 'Q2': 'There is no limit'}",,,1,,,,,,,,,,,,,,,
,survey-multi-choice,164832,0.0-3.0-5.0,,13147,"{""Q0"":""$-48 to $48"",""Q1"":""$-8 to $8"",""Q2"":""$-48 to $48"",""Q3"":""No, the cost is always $1.00."",""Q4"":""Very motivated""}",,,,1,,,,,,,,,,,,,,,
,survey-multi-choice,23287,0.0-1.0-1.0,,9437.0,"{""Q0"":""$-10 to $10"",""Q1"":""There is no cost for clicking on nodes."",""Q2"":""Five times"",""Q3"":""I will receive a $1 bonus if I perform well, otherwise I will receive no bonus."",""Q4"":""No, the structure of the web will be different each time.""}","{'Q0': '$-48 to $48', 'Q1': 'No, the cost is always $1.00.', 'Q2': 'There is no limit', 'Q3': 'The better I perform the higher my bonus will be.', 'Q4': 'No, the amount of cash at each node of the web may be different each time.'}",,,2,,,,,,,,,,,,,,,
,survey-multi-choice,20051,0.0-1.0-1.0,,7706,"{""Q0"":""$-48 to $48"",""Q1"":""No, the cost is always $1.00."",""Q2"":""There is no limit"",""Q3"":""The better I perform the higher my bonus will be."",""Q4"":""No, the amount of cash at each node of the web may be different each time.""}","{'Q0': '$-48 to $48', 'Q1': 'No, the cost is always $1.00.', 'Q2': 'There is no limit', 'Q3': 'The better I perform the higher my bonus will be.', 'Q4': 'No, the amount of cash at each node of the web may be different each time.'}",,,3,,,,,,,,,,,,,,,
,survey-multi-choice,76440,0.0-3.0-2.0-0.0,,6529,"{""Q0"":""Only after midnight"",""Q1"":""No, the cost is always $1.00."",""Q2"":""Three times""}","{'Q0': 'No', 'Q1': 'No, the cost is always $1.00.', 'Q2': 'There is no limit'}",,,3,,,,,,,,,,,,,,,
,survey-multi-choice,83314,0.0-3.0-2.1-0.1,,5541,"{""Q0"":""Only after midnight"",""Q1"":""No, the cost is always $1.00."",""Q2"":""There is no limit""}","{'Q0': 'No', 'Q1': 'No, the cost is always $1.00.', 'Q2': 'There is no limit'}",,,3,,,,,,,,,,,,,,,
,survey-multi-choice,90692,0.0-3.0-2.2-0.2,,6374,"{""Q0"":""No"",""Q1"":""No, the cost is always $1.00."",""Q2"":""There is no limit""}","{'Q0': 'No', 'Q1': 'No, the cost is always $1.00.', 'Q2': 'There is no limit'}",,,3,,,,,,,,,,,,,,,
,survey-multi-choice,145431,0.0-3.0-6.0,,11727,"{""Q0"":""$-4 to $4"",""Q1"":""$-48 to $48"",""Q2"":""$-48 to $48"",""Q3"":""No, the cost is always $1.00."",""Q4"":""Neither motivated nor unmotivated""}",,,,3,,,,,,,,,,,,,,,
,survey-multi-choice,17523,0.0-1.0-1.0,,6009,"{""Q0"":""$-48 to $48"",""Q1"":""No, the cost is always $1.00."",""Q2"":""There is no limit"",""Q3"":""The better I perform the higher my bonus will be."",""Q4"":""No, the amount of cash at each node of the web may be different each time.""}","{'Q0': '$-48 to $48', 'Q1': 'No, the cost is always $1.00.', 'Q2': 'There is no limit', 'Q3': 'The better I perform the higher my bonus will be.', 'Q4': 'No, the amount of cash at each node of the web may be different each time.'}",,,4,,,,,,,,,,,,,,,
,survey-multi-choice,18904,0.0-1.0-1.0,,8201,"{""Q0"":""$-10 to $10"",""Q1"":""There is no cost for clicking on nodes."",""Q2"":""Three times"",""Q3"":""I will receive a $1 bonus if I perform well, otherwise I will receive no bonus."",""Q4"":""No, the amount of cash at each node of the web may be different each time.""}","{'Q0': '$-48 to $48', 'Q1': 'No, the cost is always $1.00.', 'Q2': 'There is no limit', 'Q3': 'The better I perform the higher my bonus will be.', 'Q4': 'No, the amount of cash at each node of the web may be different each time.'}",,,5,,,,,,,,,,,,,,,
,survey-multi-choice,35008,0.0-1.1-1.1,,6777,"{""Q0"":""$-48 to $48"",""Q1"":""No, the cost is always $1.00."",""Q2"":""One time"",""Q3"":""The better I perform the higher my bonus will be."",""Q4"":""No, the amount of cash at each node of the web may be different each time.""}","{'Q0': '$-48 to $48', 'Q1': 'No, the cost is always $1.00.', 'Q2': 'There is no limit', 'Q3': 'The better I perform the higher my bonus will be.', 'Q4': 'No, the amount of cash at each node of the web may be different each time.'}",,,5,,,,,,,,,,,,,,,
,survey-multi-choice,51433,0.0-1.2-1.2,,7115,"{""Q0"":""$-48 to $48"",""Q1"":""No, the cost is always $1.00."",""Q2"":""One time"",""Q3"":""The better I perform the higher my bonus will be."",""Q4"":""No, the amount of cash at each node of the web may be different each time.""}","{'Q0': '$-48 to $48', 'Q1': 'No, the cost is always $1.00.', 'Q2': 'There is no limit', 'Q3': 'The better I perform the higher my bonus will be.', 'Q4': 'No, the amount of cash at each node of the web may be different each time.'}",,,5,,,,,,,,,,,,,,,
,survey-multi-choice,71957,0.0-1.3-1.3,,10539,"{""Q0"":""$-48 to $48"",""Q1"":""No, the cost is always $1.00."",""Q2"":""One time"",""Q3"":""The better I perform the higher my bonus will be."",""Q4"":""No, the amount of cash at each node of the web may be different each time.""}","{'Q0': '$-48 to $48', 'Q1': 'No, the cost is always $1.00.', 'Q2': 'There is no limit', 'Q3': 'The better I perform the higher my bonus will be.', 'Q4': 'No, the amount of cash at each node of the web may be different each time.'}",,,5,,,,,,,,,,,,,,,
,survey-multi-choice,214169,0.0-3.0-2.0-0.0,,7822,"{""Q0"":""No"",""Q1"":""No, the cost is always $1.00."",""Q2"":""There is no limit""}","{'Q0': 'No', 'Q1': 'No, the cost is always $1.00.', 'Q2': 'There is no limit'}",,,5,,,,,,,,,,,,,,,
,survey-multi-choice,508646,0.0-3.0-6.0,,7672,"{""Q0"":""$-4 to $4"",""Q1"":""$-4 to $4"",""Q2"":""$-4 to $4"",""Q3"":""No, the cost is always $1.00."",""Q4"":""Slightly motivated""}",,,,5,,,,,,,,,,,,,,,
